287   : Number of wavelengths
Radiances are in units of W cm-2 sr-1 micron-1
Fit to background spectrum
Wavelength (nm), Radiance, Error, Fitted Radiance
      382.000  2.27111e-05  2.27111e-05  1.94263e-05
      383.000  1.92099e-05  1.92099e-05  1.59172e-05
      384.000  2.02333e-05  2.02333e-05  1.68977e-05
      385.000  2.28796e-05  2.28796e-05  1.96106e-05
      386.000  2.33835e-05  2.33835e-05  2.04785e-05
      387.000  2.28372e-05  2.28372e-05  2.02789e-05
      388.000  2.22828e-05  2.22828e-05  2.10237e-05
      389.000  2.33079e-05  2.33079e-05  2.22128e-05
      390.000  2.61013e-05  2.61013e-05  2.49310e-05
      391.000  2.78277e-05  2.78277e-05  2.67843e-05
      392.000  2.54989e-05  2.54989e-05  2.40740e-05
      393.000  1.96372e-05  1.96372e-05  1.86628e-05
      394.000  1.97257e-05  1.97257e-05  1.89163e-05
      395.000  2.54344e-05  2.54344e-05  2.39769e-05
      396.000  2.49062e-05  2.49062e-05  2.32496e-05
      397.000  2.24522e-05  2.24522e-05  2.10804e-05
      398.000  2.81528e-05  2.81528e-05  2.68999e-05
      399.000  3.44224e-05  3.44224e-05  3.36555e-05
      400.000  3.66567e-05  3.66567e-05  3.61453e-05
      401.000  3.77957e-05  3.77957e-05  3.72261e-05
      402.000  3.81698e-05  3.81698e-05  3.76782e-05
      403.000  3.80028e-05  3.80028e-05  3.73861e-05
      404.000  3.80734e-05  3.80734e-05  3.73793e-05
      405.000  3.74158e-05  3.74158e-05  3.66638e-05
      406.000  3.61285e-05  3.61285e-05  3.61225e-05
      407.000  3.62157e-05  3.62157e-05  3.63409e-05
      408.000  3.84848e-05  3.84848e-05  3.76824e-05
      409.000  4.01982e-05  4.01982e-05  3.84919e-05
      410.000  3.96356e-05  3.96356e-05  3.74599e-05
      411.000  4.05285e-05  4.05285e-05  3.84043e-05
      412.000  4.22238e-05  4.22238e-05  4.02007e-05
      413.000  4.22123e-05  4.22123e-05  4.03940e-05
      414.000  4.20728e-05  4.20728e-05  3.98969e-05
      415.000  4.19960e-05  4.19960e-05  3.95829e-05
      416.000  4.19839e-05  4.19839e-05  4.05898e-05
      417.000  4.19102e-05  4.19102e-05  4.04852e-05
      418.000  4.13789e-05  4.13789e-05  4.01464e-05
      419.000  4.05342e-05  4.05342e-05  4.00113e-05
      420.000  4.03728e-05  4.03728e-05  4.09542e-05
      421.000  4.18443e-05  4.18443e-05  4.22867e-05
      422.000  4.23639e-05  4.23639e-05  4.21142e-05
      423.000  4.14516e-05  4.14516e-05  4.11714e-05
      424.000  4.15754e-05  4.15754e-05  4.15051e-05
      425.000  4.18687e-05  4.18687e-05  4.18391e-05
      426.000  4.16695e-05  4.16695e-05  4.15039e-05
      427.000  4.15505e-05  4.15505e-05  4.12304e-05
      428.000  4.12812e-05  4.12812e-05  4.09680e-05
      429.000  3.93685e-05  3.93685e-05  3.89680e-05
      430.000  3.55933e-05  3.55933e-05  3.53575e-05
      431.000  3.57524e-05  3.57524e-05  3.62057e-05
      432.000  4.07137e-05  4.07137e-05  4.19149e-05
      433.000  4.24170e-05  4.24170e-05  4.39326e-05
      434.000  4.14314e-05  4.14314e-05  4.31112e-05
      435.000  4.25873e-05  4.25873e-05  4.47492e-05
      436.000  4.38355e-05  4.38355e-05  4.68939e-05
      437.000  4.33134e-05  4.33134e-05  4.68402e-05
      438.000  4.18429e-05  4.18429e-05  4.49055e-05
      439.000  4.10747e-05  4.10747e-05  4.44215e-05
      440.000  3.95937e-05  3.95937e-05  4.42419e-05
      441.000  3.80907e-05  3.80907e-05  4.44918e-05
      442.000  3.97274e-05  3.97274e-05  4.68106e-05
      443.000  4.36375e-05  4.36375e-05  5.00554e-05
      444.000  4.68315e-05  4.68315e-05  5.21421e-05
      445.000  4.76031e-05  4.76031e-05  5.21434e-05
      446.000  4.71794e-05  4.71794e-05  5.06279e-05
      447.000  4.80728e-05  4.80728e-05  5.18072e-05
      448.000  4.93358e-05  4.93358e-05  5.31780e-05
      449.000  4.96101e-05  4.96101e-05  5.35814e-05
      450.000  5.04755e-05  5.04755e-05  5.54146e-05
      451.000  5.13725e-05  5.13725e-05  5.64932e-05
      452.000  4.99629e-05  4.99629e-05  5.50566e-05
      453.000  4.77784e-05  4.77784e-05  5.32732e-05
      454.000  4.74295e-05  4.74295e-05  5.39196e-05
      455.000  4.77913e-05  4.77913e-05  5.42974e-05
      456.000  4.82093e-05  4.82093e-05  5.49601e-05
      457.000  4.82914e-05  4.82914e-05  5.43923e-05
      458.000  4.68674e-05  4.68674e-05  5.23804e-05
      459.000  4.46782e-05  4.46782e-05  5.07733e-05
      460.000  4.44806e-05  4.44806e-05  5.12039e-05
      461.000  4.75536e-05  4.75536e-05  5.41776e-05
      462.000  5.09649e-05  5.09649e-05  5.67331e-05
      463.000  5.19671e-05  5.19671e-05  5.67355e-05
      464.000  5.12337e-05  5.12337e-05  5.56929e-05
      465.000  5.03209e-05  5.03209e-05  5.45849e-05
      466.000  4.97910e-05  4.97910e-05  5.41634e-05
      467.000  4.94576e-05  4.94576e-05  5.29060e-05
      468.000  5.03230e-05  5.03230e-05  5.38167e-05
      469.000  5.12658e-05  5.12658e-05  5.41650e-05
      470.000  5.07504e-05  5.07504e-05  5.32416e-05
      471.000  5.06233e-05  5.06233e-05  5.27176e-05
      472.000  5.14260e-05  5.14260e-05  5.35464e-05
      473.000  5.14894e-05  5.14894e-05  5.33499e-05
      474.000  5.13859e-05  5.13859e-05  5.31581e-05
      475.000  5.12366e-05  5.12366e-05  5.34742e-05
      476.000  5.03074e-05  5.03074e-05  5.20235e-05
      477.000  4.97362e-05  4.97362e-05  5.16050e-05
      478.000  4.90680e-05  4.90680e-05  5.00493e-05
      479.000  4.71484e-05  4.71484e-05  4.91157e-05
      480.000  4.47862e-05  4.47862e-05  4.82450e-05
      481.000  4.26050e-05  4.26050e-05  4.69871e-05
      482.000  4.33788e-05  7.40010e-07  4.56778e-05
      483.000  4.18350e-05  7.31056e-07  4.30647e-05
      484.000  3.82565e-05  7.17730e-07  3.83172e-05
      485.000  3.30917e-05  6.80328e-07  3.29452e-05
      486.000  3.16880e-05  6.28823e-07  2.93461e-05
      487.000  3.42715e-05  6.34075e-07  3.47890e-05
      488.000  4.41813e-05  6.71651e-07  4.17267e-05
      489.000  4.86080e-05  6.94887e-07  4.77350e-05
      490.000  5.04468e-05  7.14560e-07  4.93146e-05
      491.000  4.92753e-05  7.07327e-07  4.90412e-05
      492.000  4.80988e-05  6.89353e-07  4.81564e-05
      493.000  4.85173e-05  6.94653e-07  4.82705e-05
      494.000  4.90890e-05  7.07115e-07  4.84471e-05
      495.000  4.88459e-05  7.13809e-07  4.85923e-05
      496.000  4.89096e-05  7.11874e-07  4.84073e-05
      497.000  4.85750e-05  7.06457e-07  4.78753e-05
      498.000  4.74042e-05  6.96833e-07  4.78572e-05
      499.000  4.65740e-05  6.88331e-07  4.63705e-05
      500.000  4.53638e-05  6.80217e-07  4.58481e-05
      501.000  4.39379e-05  6.64830e-07  4.45672e-05
      502.000  4.35208e-05  6.63111e-07  4.39194e-05
      503.000  4.30353e-05  6.72723e-07  4.40765e-05
      504.000  4.18071e-05  6.74241e-07  4.33883e-05
      505.000  4.12497e-05  6.83792e-07  4.26144e-05
      506.000  4.04670e-05  6.95914e-07  4.22661e-05
      507.000  3.80416e-05  6.85347e-07  4.04416e-05
      508.000  3.57118e-05  6.74626e-07  3.74233e-05
      509.000  3.44772e-05  6.77667e-07  3.61710e-05
      510.000  3.42379e-05  6.76030e-07  3.60010e-05
      511.000  3.61722e-05  6.77121e-07  3.71039e-05
      512.000  3.91820e-05  6.77338e-07  3.95216e-05
      513.000  4.16467e-05  6.61900e-07  4.11948e-05
      514.000  4.32769e-05  6.49881e-07  4.24678e-05
      515.000  4.40084e-05  6.52367e-07  4.33714e-05
      516.000  4.22719e-05  6.31370e-07  4.20558e-05
      517.000  3.88575e-05  5.93389e-07  3.97712e-05
      518.000  3.87812e-05  5.93782e-07  3.87781e-05
      519.000  3.95301e-05  6.19575e-07  3.99735e-05
      520.000  3.93400e-05  6.41566e-07  4.03831e-05
      521.000  3.89657e-05  6.54854e-07  3.96758e-05
      522.000  3.86410e-05  6.55307e-07  3.94356e-05
      523.000  3.95001e-05  6.55181e-07  3.94444e-05
      524.000  4.13045e-05  6.67596e-07  4.03956e-05
      525.000  4.22676e-05  6.73044e-07  4.15326e-05
      526.000  4.18262e-05  6.47464e-07  4.10627e-05
      527.000  4.07563e-05  6.23993e-07  3.97480e-05
      528.000  4.30574e-05  6.46351e-07  4.15237e-05
      529.000  4.39624e-05  6.74328e-07  4.29673e-05
      530.000  4.33747e-05  6.79742e-07  4.26221e-05
      531.000  4.17609e-05  6.84309e-07  4.19099e-05
      532.000  3.86797e-05  6.71267e-07  3.96404e-05
      533.000  3.58717e-05  6.52801e-07  3.64914e-05
      534.000  3.44665e-05  6.59120e-07  3.49654e-05
      535.000  3.25945e-05  6.74220e-07  3.33348e-05
      536.000  2.93491e-05  6.74379e-07  3.01292e-05
      537.000  2.58411e-05  6.63598e-07  2.67005e-05
      538.000  2.32818e-05  6.63134e-07  2.36543e-05
      539.000  2.09492e-05  6.59663e-07  2.11911e-05
      540.000  1.83712e-05  6.44649e-07  1.85876e-05
      541.000  1.63545e-05  6.43713e-07  1.64804e-05
      542.000  1.48479e-05  6.54362e-07  1.50697e-05
      543.000  1.46871e-05  6.60580e-07  1.47536e-05
      544.000  1.66133e-05  6.65639e-07  1.59519e-05
      545.000  2.09442e-05  6.69097e-07  1.87892e-05
      546.000  2.67421e-05  6.69954e-07  2.43958e-05
      547.000  3.28131e-05  6.66485e-07  3.15109e-05
      548.000  3.81766e-05  6.63164e-07  3.73820e-05
      549.000  4.17532e-05  6.68814e-07  4.13114e-05
      550.000  4.31580e-05  6.71334e-07  4.29192e-05
      551.000  4.35227e-05  6.69728e-07  4.28866e-05
      554.000  4.09167e-05  6.68752e-07  4.16548e-05
      557.000  4.02516e-05  6.53393e-07  3.94484e-05
      560.000  3.92599e-05  6.38169e-07  3.87975e-05
      563.000  3.93667e-05  6.48825e-07  3.80245e-05
      566.000  3.41086e-05  6.40084e-07  3.47687e-05
      569.000  2.91495e-05  6.44516e-07  2.96288e-05
      572.000  2.54693e-05  6.45374e-07  2.52544e-05
      575.000  2.07475e-05  6.48634e-07  1.98178e-05
      578.000  2.15536e-05  6.39831e-07  2.08392e-05
      605.000  2.57844e-05  6.20683e-07  2.66887e-05
      608.000  1.91444e-05  6.15901e-07  1.95485e-05
      611.000  1.39812e-05  6.09052e-07  1.40280e-05
      614.000  7.61670e-06  5.97631e-07  7.81303e-06
      617.000  5.95748e-06  5.86468e-07  6.31127e-06
      620.000  5.47670e-06  6.03219e-07  5.95341e-06
      623.000  7.29049e-06  5.91161e-07  6.97291e-06
      626.000  1.41284e-05  5.84021e-07  1.23860e-05
      629.000  2.71866e-05  5.92675e-07  2.19614e-05
      632.000  2.58541e-05  5.79814e-07  2.53545e-05
      635.000  2.63865e-05  5.79788e-07  2.49374e-05
      638.000  2.24354e-05  5.83318e-07  2.29049e-05
      642.000  1.75087e-05  5.67879e-07  1.76306e-05
      645.000  1.78818e-05  5.67251e-07  1.79302e-05
      648.000  1.65973e-05  5.66563e-07  1.66650e-05
      651.000  1.47737e-05  5.60789e-07  1.39410e-05
      654.000  1.29371e-05  5.50322e-07  1.21732e-05
      657.000  9.74791e-06  4.81210e-07  8.62110e-06
      660.000  9.03462e-06  5.18637e-07  8.61628e-06
      663.000  7.67749e-06  5.08587e-07  7.40189e-06
      666.000  6.54882e-06  4.98349e-07  6.56661e-06
      669.000  6.94292e-06  4.93087e-07  6.84999e-06
      672.000  9.66080e-06  4.79147e-07  9.56517e-06
      675.000  1.45290e-05  4.71986e-07  1.47187e-05
      678.000  1.72977e-05  4.56913e-07  1.69988e-05
      681.000  1.16774e-05  4.42849e-07  1.26620e-05
      684.000  9.49291e-06  4.32013e-07  1.00157e-05
      687.000  1.15028e-05  4.23892e-07  1.16974e-05
      690.000  1.30978e-05  4.12459e-07  1.31958e-05
      693.000  1.27599e-05  4.00678e-07  1.27874e-05
      696.000  8.46350e-06  3.92704e-07  8.98293e-06
      699.000  5.20985e-06  3.81060e-07  5.56158e-06
      702.000  3.63874e-06  3.65902e-07  3.89861e-06
      705.000  4.17232e-06  3.62526e-07  4.15015e-06
      708.000  5.49334e-06  3.51274e-07  5.34164e-06
      711.000  6.83420e-06  3.41219e-07  6.76918e-06
      714.000  6.46854e-06  3.30667e-07  6.71995e-06
      717.000  3.04618e-06  3.21591e-07  3.20480e-06
      720.000  2.11730e-06  3.09416e-07  2.40495e-06
      723.000  1.99443e-06  3.03266e-07  2.19812e-06
      726.000  1.59834e-06  2.95484e-07  1.84299e-06
      729.000  1.61943e-06  2.82140e-07  1.82281e-06
      733.000  1.92679e-06  2.74971e-07  2.13397e-06
      736.000  2.30002e-06  2.66425e-07  2.44404e-06
      739.000  3.56599e-06  2.55260e-07  3.49118e-06
      742.000  6.59529e-06  2.47010e-07  6.66121e-06
      745.000  8.87261e-06  2.43733e-07  9.35007e-06
      748.000  8.94122e-06  2.38290e-07  9.44522e-06
      751.000  9.11107e-06  2.30501e-07  9.31505e-06
      754.000  9.28347e-06  2.30703e-07  9.48309e-06
      757.000  7.52623e-06  2.28014e-07  8.14347e-06
      760.000  6.20497e-06  2.26646e-07  6.15966e-06
      763.000  4.20919e-06  2.26187e-07  4.35662e-06
      766.000  3.32674e-06  2.18447e-07  3.59408e-06
      769.000  3.43343e-06  2.21145e-07  3.70365e-06
      772.000  2.94881e-06  2.18009e-07  3.18855e-06
      775.000  2.41755e-06  2.15662e-07  2.51110e-06
      778.000  1.95293e-06  2.14444e-07  2.05873e-06
      781.000  1.45744e-06  2.13507e-07  1.60232e-06
      784.000  1.41255e-06  2.12271e-07  1.50098e-06
      787.000  1.45319e-06  2.13262e-07  1.59215e-06
      790.000  1.53426e-06  2.12294e-07  1.60511e-06
      793.000  1.20652e-06  2.05623e-07  1.34827e-06
      796.000  1.17058e-06  2.07032e-07  1.27261e-06
      802.000  1.22931e-06  1.01844e-07  1.38637e-06
      805.000  1.31452e-06  9.93801e-08  1.44966e-06
      808.000  1.48899e-06  9.80813e-08  1.64780e-06
      811.000  1.71325e-06  9.69122e-08  1.81049e-06
      814.000  2.43148e-06  9.55629e-08  2.36007e-06
      817.000  3.27341e-06  9.31432e-08  3.20479e-06
      821.000  4.63111e-06  8.89149e-08  4.69831e-06
      824.000  4.96164e-06  8.83523e-08  4.99177e-06
      827.000  5.32201e-06  8.71758e-08  4.80471e-06
      830.000  6.56861e-06  8.51474e-08  6.14293e-06
      833.000  4.98666e-06  8.20677e-08  5.70494e-06
      836.000  1.53744e-06  8.15688e-08  1.91243e-06
      839.000  1.01952e-06  7.96093e-08  1.11494e-06
      842.000  1.01123e-06  7.82202e-08  1.04900e-06
      845.000  1.22235e-06  7.60659e-08  1.20452e-06
      848.000  1.41307e-06  7.45641e-08  1.49525e-06
      851.000  1.24557e-06  7.05678e-08  1.38343e-06
      854.000  7.72555e-07  6.40695e-08  8.87112e-07
      857.000  7.10164e-07  7.16127e-08  8.49772e-07
      860.000  6.09030e-07  7.07120e-08  7.46747e-07
      863.000  5.46867e-07  7.16041e-08  6.66564e-07
      866.000  4.86212e-07  6.49039e-08  6.20045e-07
      869.000  6.03547e-07  7.04410e-08  7.47775e-07
      872.000  6.75834e-07  7.06119e-08  8.15857e-07
      875.000  7.49970e-07  6.88918e-08  8.13649e-07
      878.000  6.74621e-07  6.86075e-08  7.67748e-07
      881.000  5.12510e-07  6.63676e-08  5.39555e-07
      884.000  3.23265e-07  6.71765e-08  3.76625e-07
      887.000  3.09470e-07  6.53480e-08  3.12057e-07
      890.000  3.50011e-07  6.58169e-08  3.57005e-07
      893.000  3.49179e-07  6.45076e-08  3.44024e-07
      896.000  3.57883e-07  6.43159e-08  3.40338e-07
      899.000  4.13194e-07  6.34043e-08  4.01537e-07
      902.000  4.47660e-07  1.21701e-07  4.65362e-07
      905.000  5.39785e-07  1.25403e-07  5.64855e-07
      908.000  6.18158e-07  1.22477e-07  6.28948e-07
      912.000  6.34703e-07  1.22764e-07  6.34103e-07
      915.000  6.69390e-07  1.22427e-07  6.48731e-07
      918.000  7.85253e-07  1.21435e-07  7.27489e-07
      921.000  9.50082e-07  1.18657e-07  9.11327e-07
      924.000  1.30636e-06  1.16208e-07  1.43772e-06
      927.000  1.82468e-06  1.18036e-07  2.07841e-06
      930.000  3.54121e-06  1.18391e-07  3.59873e-06
      933.000  4.63474e-06  1.18076e-07  4.91970e-06
 
Fits to DBS-2019 spectrum
Wavelength (nm), Radiance, Error, Fitted Radiance 1, Fitted Radiance 2 (modified Aerosol 1 radius)
      382.000  2.29779e-05  2.29779e-05  1.92714e-05  1.92171e-05
      383.000  1.94356e-05  1.94356e-05  1.57851e-05  1.57402e-05
      384.000  2.04710e-05  2.04710e-05  1.67515e-05  1.67033e-05
      385.000  2.31484e-05  2.31484e-05  1.94340e-05  1.93777e-05
      386.000  2.36582e-05  2.36582e-05  2.02787e-05  2.02199e-05
      387.000  2.31055e-05  2.31055e-05  2.00727e-05  2.00141e-05
      388.000  2.25446e-05  2.25446e-05  2.07805e-05  2.07211e-05
      389.000  2.35817e-05  2.35817e-05  2.19478e-05  2.18852e-05
      390.000  2.64079e-05  2.64079e-05  2.46161e-05  2.45478e-05
      391.000  2.81546e-05  2.81546e-05  2.64165e-05  2.63473e-05
      392.000  2.57985e-05  2.57985e-05  2.37156e-05  2.36575e-05
      393.000  1.98679e-05  1.98679e-05  1.83489e-05  1.83105e-05
      394.000  1.99575e-05  1.99575e-05  1.85872e-05  1.85496e-05
      395.000  2.57332e-05  2.57332e-05  2.35634e-05  2.35150e-05
      396.000  2.51988e-05  2.51988e-05  2.28307e-05  2.27868e-05
      397.000  2.27160e-05  2.27160e-05  2.06730e-05  2.06404e-05
      398.000  2.84836e-05  2.84836e-05  2.63874e-05  2.63424e-05
      399.000  3.48268e-05  3.48268e-05  3.30055e-05  3.29516e-05
      400.000  3.70874e-05  3.70874e-05  3.54094e-05  3.53611e-05
      401.000  3.82397e-05  3.82397e-05  3.64411e-05  3.63938e-05
      402.000  3.86182e-05  3.86182e-05  3.68613e-05  3.68165e-05
      403.000  3.84492e-05  3.84492e-05  3.65419e-05  3.65022e-05
      404.000  3.85206e-05  3.85206e-05  3.64591e-05  3.64386e-05
      405.000  3.78554e-05  3.78554e-05  3.57249e-05  3.57091e-05
      406.000  3.65529e-05  3.65529e-05  3.51488e-05  3.51425e-05
      407.000  3.66411e-05  3.66411e-05  3.52947e-05  3.53063e-05
      408.000  3.89369e-05  3.89369e-05  3.65537e-05  3.65739e-05
      409.000  4.06704e-05  4.06704e-05  3.72471e-05  3.72955e-05
      410.000  4.01013e-05  4.01013e-05  3.61902e-05  3.62488e-05
      411.000  4.10046e-05  4.10046e-05  3.70480e-05  3.71186e-05
      412.000  4.27198e-05  4.27198e-05  3.87223e-05  3.88081e-05
      413.000  4.27081e-05  4.27081e-05  3.88479e-05  3.89418e-05
      414.000  4.25670e-05  4.25670e-05  3.83421e-05  3.84322e-05
      415.000  4.24894e-05  4.24894e-05  3.80182e-05  3.81010e-05
      416.000  4.24771e-05  4.24771e-05  3.88526e-05  3.89682e-05
      417.000  4.24026e-05  4.24026e-05  3.86798e-05  3.88020e-05
      418.000  4.18650e-05  4.18650e-05  3.82472e-05  3.83910e-05
      419.000  4.10103e-05  4.10103e-05  3.80683e-05  3.82056e-05
      420.000  4.08470e-05  4.08470e-05  3.88473e-05  3.90103e-05
      421.000  4.23358e-05  4.23358e-05  4.00148e-05  4.01943e-05
      422.000  4.28615e-05  4.28615e-05  3.97066e-05  3.99127e-05
      423.000  4.19385e-05  4.19385e-05  3.86452e-05  3.88837e-05
      424.000  4.20638e-05  4.20638e-05  3.88707e-05  3.91105e-05
      425.000  4.23606e-05  4.23606e-05  3.90691e-05  3.93144e-05
      426.000  4.21590e-05  4.21590e-05  3.86542e-05  3.88963e-05
      427.000  4.20386e-05  4.20386e-05  3.82653e-05  3.85151e-05
      428.000  4.17661e-05  4.17661e-05  3.78839e-05  3.81405e-05
      429.000  3.98310e-05  3.98310e-05  3.58705e-05  3.61326e-05
      430.000  3.60115e-05  3.60115e-05  3.23460e-05  3.26176e-05
      431.000  3.61724e-05  3.61724e-05  3.30375e-05  3.32995e-05
      432.000  4.11919e-05  4.11919e-05  3.83327e-05  3.85479e-05
      433.000  4.29153e-05  4.29153e-05  4.01498e-05  4.03236e-05
      434.000  4.19181e-05  4.19181e-05  3.93336e-05  3.94672e-05
      435.000  4.30876e-05  4.30876e-05  4.09468e-05  4.09905e-05
      436.000  4.43505e-05  4.43505e-05  4.30431e-05  4.29823e-05
      437.000  4.38222e-05  4.38222e-05  4.29868e-05  4.28689e-05
      438.000  4.23345e-05  4.23345e-05  4.11754e-05  4.10078e-05
      439.000  4.15573e-05  4.15573e-05  4.08088e-05  4.05524e-05
      440.000  4.00589e-05  4.00589e-05  4.14102e-05  4.08899e-05
      441.000  3.85382e-05  3.85382e-05  4.22525e-05  4.15263e-05
      442.000  4.01941e-05  4.01941e-05  4.42645e-05  4.34828e-05
      443.000  4.41501e-05  4.41501e-05  4.63640e-05  4.57176e-05
      444.000  4.73816e-05  4.73816e-05  4.74125e-05  4.69371e-05
      445.000  4.81623e-05  4.81623e-05  4.70836e-05  4.66445e-05
      446.000  4.77336e-05  4.77336e-05  4.59001e-05  4.53641e-05
      447.000  4.86376e-05  4.86376e-05  4.70399e-05  4.64297e-05
      448.000  4.99153e-05  4.99153e-05  4.85007e-05  4.77523e-05
      449.000  5.01929e-05  5.01929e-05  4.89540e-05  4.81424e-05
      450.000  5.10684e-05  5.10684e-05  5.05842e-05  4.97066e-05
      451.000  5.19760e-05  5.19760e-05  5.16366e-05  5.06914e-05
      452.000  5.05498e-05  5.05498e-05  5.03858e-05  4.94176e-05
      453.000  4.83397e-05  4.83397e-05  4.88935e-05  4.78886e-05
      454.000  4.79867e-05  4.79867e-05  4.95669e-05  4.85194e-05
      455.000  4.83528e-05  4.83528e-05  5.02292e-05  4.90843e-05
      456.000  4.87757e-05  4.87757e-05  5.10100e-05  4.98071e-05
      457.000  4.88587e-05  4.88587e-05  5.09920e-05  4.96566e-05
      458.000  4.74180e-05  4.74180e-05  4.97897e-05  4.83130e-05
      459.000  4.52030e-05  4.52030e-05  4.85753e-05  4.70670e-05
      460.000  4.50031e-05  4.50031e-05  4.89420e-05  4.74504e-05
      461.000  4.81122e-05  4.81122e-05  5.10143e-05  4.97062e-05
      462.000  5.15636e-05  5.15636e-05  5.27647e-05  5.16949e-05
      463.000  5.25775e-05  5.25775e-05  5.26040e-05  5.16748e-05
      464.000  5.18355e-05  5.18355e-05  5.18101e-05  5.09015e-05
      465.000  5.09120e-05  5.09120e-05  5.10163e-05  5.00835e-05
      466.000  5.03759e-05  5.03759e-05  5.08895e-05  4.99244e-05
      467.000  5.00386e-05  5.00386e-05  4.98301e-05  4.89210e-05
      468.000  5.09141e-05  5.09141e-05  5.04875e-05  4.97475e-05
      469.000  5.18680e-05  5.18680e-05  5.07732e-05  5.01331e-05
      470.000  5.13466e-05  5.13466e-05  4.99095e-05  4.93695e-05
      471.000  5.12180e-05  5.12180e-05  4.95941e-05  4.90678e-05
      472.000  5.20301e-05  5.20301e-05  5.05723e-05  5.00325e-05
      473.000  5.20942e-05  5.20942e-05  5.05055e-05  4.99885e-05
      474.000  5.19896e-05  5.19896e-05  5.03392e-05  4.98988e-05
      475.000  5.18385e-05  5.18385e-05  5.06652e-05  5.02839e-05
      476.000  5.08984e-05  5.08984e-05  4.96217e-05  4.91546e-05
      477.000  5.03205e-05  5.03205e-05  4.94356e-05  4.88945e-05
      478.000  4.96445e-05  4.96445e-05  4.84867e-05  4.77112e-05
      479.000  4.77023e-05  4.77023e-05  4.78373e-05  4.69530e-05
      480.000  4.53124e-05  4.53124e-05  4.71803e-05  4.62155e-05
      481.000  4.31055e-05  4.31055e-05  4.61856e-05  4.51508e-05
      482.000  4.27036e-05  7.40010e-07  4.50933e-05  4.40360e-05
      483.000  4.14520e-05  7.31056e-07  4.27184e-05  4.16722e-05
      484.000  3.73002e-05  7.17730e-07  3.82620e-05  3.73429e-05
      485.000  3.18251e-05  6.80328e-07  3.29963e-05  3.22977e-05
      486.000  3.03203e-05  6.28823e-07  2.94254e-05  2.88356e-05
      487.000  3.34999e-05  6.34075e-07  3.47107e-05  3.38900e-05
      488.000  4.30709e-05  6.71651e-07  4.11909e-05  4.04135e-05
      489.000  4.85457e-05  6.94887e-07  4.63593e-05  4.61296e-05
      490.000  4.83191e-05  7.14560e-07  4.77118e-05  4.78059e-05
      491.000  4.72174e-05  7.07327e-07  4.73653e-05  4.76124e-05
      492.000  4.63939e-05  6.89353e-07  4.64828e-05  4.68231e-05
      493.000  4.71303e-05  6.94653e-07  4.66541e-05  4.70173e-05
      494.000  4.73740e-05  7.07115e-07  4.69297e-05  4.72856e-05
      495.000  4.70873e-05  7.13809e-07  4.71439e-05  4.74824e-05
      496.000  4.72509e-05  7.11874e-07  4.69905e-05  4.73615e-05
      497.000  4.72283e-05  7.06457e-07  4.65394e-05  4.68805e-05
      498.000  4.67099e-05  6.96833e-07  4.64453e-05  4.68817e-05
      499.000  4.60241e-05  6.88331e-07  4.51881e-05  4.54886e-05
      500.000  4.47631e-05  6.80217e-07  4.47147e-05  4.49818e-05
      501.000  4.28975e-05  6.64830e-07  4.35472e-05  4.37417e-05
      502.000  4.24018e-05  6.63111e-07  4.30447e-05  4.31138e-05
      503.000  4.24304e-05  6.72723e-07  4.32644e-05  4.32780e-05
      504.000  4.19070e-05  6.74241e-07  4.27185e-05  4.26150e-05
      505.000  4.16230e-05  6.83792e-07  4.21637e-05  4.18870e-05
      506.000  4.07607e-05  6.95914e-07  4.19595e-05  4.15565e-05
      507.000  3.79867e-05  6.85347e-07  4.02334e-05  3.97296e-05
      508.000  3.56189e-05  6.74626e-07  3.74274e-05  3.68066e-05
      509.000  3.45682e-05  6.77667e-07  3.62851e-05  3.56200e-05
      510.000  3.39753e-05  6.76030e-07  3.60982e-05  3.54470e-05
      511.000  3.58621e-05  6.77121e-07  3.71592e-05  3.65449e-05
      512.000  3.86946e-05  6.77338e-07  3.94500e-05  3.89990e-05
      513.000  4.03257e-05  6.61900e-07  4.08327e-05  4.07255e-05
      514.000  4.19932e-05  6.49881e-07  4.17744e-05  4.21730e-05
      515.000  4.35146e-05  6.52367e-07  4.25240e-05  4.32041e-05
      516.000  4.19514e-05  6.31370e-07  4.12585e-05  4.20042e-05
      517.000  3.86507e-05  5.93389e-07  3.89912e-05  3.96888e-05
      518.000  3.94259e-05  5.93782e-07  3.82695e-05  3.86878e-05
      519.000  4.00889e-05  6.19575e-07  3.95385e-05  3.97923e-05
      520.000  3.98684e-05  6.41566e-07  4.01316e-05  4.01468e-05
      521.000  3.96539e-05  6.54854e-07  3.96827e-05  3.94278e-05
      522.000  3.92924e-05  6.55307e-07  3.94576e-05  3.91514e-05
      523.000  3.97027e-05  6.55181e-07  3.94943e-05  3.91920e-05
      524.000  4.20871e-05  6.67596e-07  4.04967e-05  4.02391e-05
      525.000  4.27725e-05  6.73044e-07  4.15826e-05  4.14634e-05
      526.000  4.19002e-05  6.47464e-07  4.09496e-05  4.10377e-05
      527.000  4.02662e-05  6.23993e-07  3.96767e-05  3.98370e-05
      528.000  4.25505e-05  6.46351e-07  4.13804e-05  4.16115e-05
      529.000  4.38769e-05  6.74328e-07  4.29002e-05  4.30762e-05
      530.000  4.35494e-05  6.79742e-07  4.26673e-05  4.27125e-05
      531.000  4.17422e-05  6.84309e-07  4.20894e-05  4.19527e-05
      532.000  3.84759e-05  6.71267e-07  3.99362e-05  3.96112e-05
      533.000  3.54477e-05  6.52801e-07  3.69457e-05  3.64368e-05
      534.000  3.36289e-05  6.59120e-07  3.54761e-05  3.48658e-05
      535.000  3.17775e-05  6.74220e-07  3.38464e-05  3.31537e-05
      536.000  2.92310e-05  6.74379e-07  3.06420e-05  2.99679e-05
      537.000  2.64409e-05  6.63598e-07  2.70872e-05  2.65310e-05
      538.000  2.41880e-05  6.63134e-07  2.39258e-05  2.35168e-05
      539.000  2.09134e-05  6.59663e-07  2.13706e-05  2.10893e-05
      540.000  1.79842e-05  6.44649e-07  1.86909e-05  1.85235e-05
      541.000  1.59201e-05  6.43713e-07  1.65192e-05  1.64388e-05
      542.000  1.45733e-05  6.54362e-07  1.50806e-05  1.50457e-05
      543.000  1.47850e-05  6.60580e-07  1.47591e-05  1.47321e-05
      544.000  1.72201e-05  6.65639e-07  1.59616e-05  1.59058e-05
      545.000  2.10707e-05  6.69097e-07  1.89062e-05  1.87251e-05
      546.000  2.70392e-05  6.69954e-07  2.47532e-05  2.42657e-05
      547.000  3.35173e-05  6.66485e-07  3.22138e-05  3.14490e-05
      548.000  3.91756e-05  6.63164e-07  3.82193e-05  3.76230e-05
      549.000  4.27055e-05  6.68814e-07  4.21199e-05  4.19583e-05
      550.000  4.40390e-05  6.71334e-07  4.36634e-05  4.38441e-05
      551.000  4.44538e-05  6.69728e-07  4.37356e-05  4.40115e-05
      554.000  4.14108e-05  6.68752e-07  4.27363e-05  4.26364e-05
      557.000  4.06700e-05  6.53393e-07  4.06048e-05  4.01589e-05
      560.000  3.92864e-05  6.38169e-07  4.01164e-05  3.97335e-05
      563.000  3.95470e-05  6.48825e-07  3.94766e-05  3.88977e-05
      566.000  3.48988e-05  6.40084e-07  3.61408e-05  3.53077e-05
      569.000  2.91543e-05  6.44516e-07  3.07627e-05  2.99043e-05
      572.000  2.57799e-05  6.45374e-07  2.60358e-05  2.53327e-05
      575.000  2.06986e-05  6.48634e-07  2.02261e-05  1.98313e-05
      578.000  2.13363e-05  6.39831e-07  2.13475e-05  2.08700e-05
      605.000  2.61799e-05  6.20683e-07  2.76445e-05  2.68924e-05
      608.000  1.93247e-05  6.15901e-07  2.00994e-05  1.96649e-05
      611.000  1.40826e-05  6.09052e-07  1.42411e-05  1.40734e-05
      614.000  7.64284e-06  5.97631e-07  7.81303e-06  7.81078e-06
      617.000  5.86629e-06  5.86468e-07  6.30915e-06  6.30923e-06
      620.000  5.39227e-06  6.03219e-07  5.95092e-06  5.95122e-06
      623.000  7.25972e-06  5.91161e-07  6.97073e-06  6.97064e-06
      626.000  1.41630e-05  5.84021e-07  1.25375e-05  1.24301e-05
      629.000  2.80441e-05  5.92675e-07  2.23221e-05  2.20188e-05
      632.000  2.63923e-05  5.79814e-07  2.54206e-05  2.52296e-05
      635.000  2.69184e-05  5.79788e-07  2.49565e-05  2.48108e-05
      638.000  2.32715e-05  5.83318e-07  2.30383e-05  2.28844e-05
      642.000  1.78536e-05  5.67879e-07  1.78896e-05  1.77319e-05
      645.000  1.84173e-05  5.67251e-07  1.81744e-05  1.80388e-05
      648.000  1.72555e-05  5.66563e-07  1.69147e-05  1.67934e-05
      651.000  1.53975e-05  5.60789e-07  1.41600e-05  1.40612e-05
      654.000  1.29821e-05  5.50322e-07  1.23406e-05  1.22686e-05
      657.000  9.92259e-06  4.81210e-07  8.69508e-06  8.66292e-06
      660.000  9.31182e-06  5.18637e-07  8.67302e-06  8.64817e-06
      663.000  7.51694e-06  5.08587e-07  7.42928e-06  7.41669e-06
      666.000  6.48821e-06  4.98349e-07  6.57973e-06  6.57303e-06
      669.000  7.25574e-06  4.93087e-07  6.86984e-06  6.86104e-06
      672.000  9.69525e-06  4.79147e-07  9.67687e-06  9.64746e-06
      675.000  1.53982e-05  4.71986e-07  1.49777e-05  1.50168e-05
      678.000  1.81317e-05  4.56913e-07  1.72561e-05  1.74213e-05
      681.000  1.22680e-05  4.42849e-07  1.29129e-05  1.29415e-05
      684.000  9.89082e-06  4.32013e-07  1.01875e-05  1.01743e-05
      687.000  1.19676e-05  4.23892e-07  1.19645e-05  1.19808e-05
      690.000  1.38167e-05  4.12459e-07  1.35609e-05  1.36312e-05
      693.000  1.34402e-05  4.00678e-07  1.31725e-05  1.32384e-05
      696.000  8.49966e-06  3.92704e-07  9.15532e-06  9.14738e-06
      699.000  5.13144e-06  3.81060e-07  5.57898e-06  5.57464e-06
      702.000  3.67503e-06  3.65902e-07  3.89923e-06  3.89902e-06
      705.000  4.24520e-06  3.62526e-07  4.15186e-06  4.15124e-06
      708.000  5.35706e-06  3.51274e-07  5.36475e-06  5.36019e-06
      711.000  6.83143e-06  3.41219e-07  6.86768e-06  6.86300e-06
      714.000  6.33048e-06  3.30667e-07  6.82198e-06  6.81859e-06
      717.000  3.05524e-06  3.21591e-07  3.20512e-06  3.20505e-06
      720.000  2.09164e-06  3.09416e-07  2.40523e-06  2.40521e-06
      723.000  1.91299e-06  3.03266e-07  2.19814e-06  2.19815e-06
      726.000  1.51795e-06  2.95484e-07  1.84321e-06  1.84313e-06
      729.000  1.58780e-06  2.82140e-07  1.82282e-06  1.82282e-06
      733.000  1.85876e-06  2.74971e-07  2.13400e-06  2.13400e-06
      736.000  2.19835e-06  2.66425e-07  2.44440e-06  2.44425e-06
      739.000  3.57995e-06  2.55260e-07  3.49661e-06  3.49594e-06
      742.000  6.97155e-06  2.47010e-07  6.97913e-06  6.98780e-06
      745.000  1.02010e-05  2.43733e-07  1.04784e-05  1.05114e-05
      748.000  9.48936e-06  2.38290e-07  1.07295e-05  1.07541e-05
      751.000  1.02460e-05  2.30501e-07  1.06976e-05  1.07070e-05
      754.000  1.11013e-05  2.30703e-07  1.10714e-05  1.10611e-05
      757.000  7.94341e-06  2.28014e-07  9.22474e-06  9.21668e-06
      760.000  7.02646e-06  2.26646e-07  6.57947e-06  6.58106e-06
      763.000  4.16651e-06  2.26187e-07  4.44020e-06  4.44151e-06
      766.000  3.56603e-06  2.18447e-07  3.62479e-06  3.62531e-06
      769.000  3.51528e-06  2.21145e-07  3.74031e-06  3.74114e-06
      772.000  2.86099e-06  2.18009e-07  3.20401e-06  3.20439e-06
      775.000  2.43543e-06  2.15662e-07  2.51363e-06  2.51366e-06
      778.000  1.92812e-06  2.14444e-07  2.05915e-06  2.05915e-06
      781.000  1.46670e-06  2.13507e-07  1.60250e-06  1.60250e-06
      784.000  1.44608e-06  2.12271e-07  1.50106e-06  1.50106e-06
      787.000  1.44495e-06  2.13262e-07  1.59225e-06  1.59225e-06
      790.000  1.58170e-06  2.12294e-07  1.60511e-06  1.60512e-06
      793.000  1.17201e-06  2.05623e-07  1.34837e-06  1.34838e-06
      796.000  1.14365e-06  2.07032e-07  1.27262e-06  1.27263e-06
      802.000  1.16197e-06  1.01844e-07  1.38637e-06  1.38637e-06
      805.000  1.39893e-06  9.93801e-08  1.44966e-06  1.44966e-06
      808.000  1.41673e-06  9.80813e-08  1.64787e-06  1.64788e-06
      811.000  1.72143e-06  9.69122e-08  1.81115e-06  1.81127e-06
      814.000  2.38300e-06  9.55629e-08  2.37514e-06  2.37826e-06
      817.000  3.47815e-06  9.31432e-08  3.32351e-06  3.34334e-06
      821.000  4.90573e-06  8.89149e-08  5.40583e-06  5.45229e-06
      824.000  5.67508e-06  8.83523e-08  6.05564e-06  6.08926e-06
      827.000  6.27206e-06  8.71758e-08  5.91865e-06  5.95458e-06
      830.000  9.43692e-06  8.51474e-08  8.06655e-06  8.07745e-06
      833.000  5.77079e-06  8.20677e-08  6.96391e-06  7.06995e-06
      836.000  1.54620e-06  8.15688e-08  1.91804e-06  1.92022e-06
      839.000  9.77447e-07  7.96093e-08  1.11494e-06  1.11494e-06
      842.000  9.50177e-07  7.82202e-08  1.04900e-06  1.04900e-06
      845.000  1.20053e-06  7.60659e-08  1.20457e-06  1.20459e-06
      848.000  1.56766e-06  7.45641e-08  1.49591e-06  1.49629e-06
      851.000  1.40253e-06  7.05678e-08  1.38382e-06  1.38406e-06
      854.000  7.28219e-07  6.40695e-08  8.87113e-07  8.87113e-07
      857.000  6.77133e-07  7.16127e-08  8.49772e-07  8.49772e-07
      860.000  6.06839e-07  7.07120e-08  7.46747e-07  7.46747e-07
      863.000  5.14369e-07  7.16041e-08  6.66564e-07  6.66564e-07
      866.000  5.76777e-07  6.49039e-08  6.20045e-07  6.20045e-07
      869.000  7.06843e-07  7.04410e-08  7.47775e-07  7.47775e-07
      872.000  6.08752e-07  7.06119e-08  8.15857e-07  8.15857e-07
      875.000  7.21926e-07  6.88918e-08  8.13649e-07  8.13649e-07
      878.000  6.81135e-07  6.86075e-08  7.67748e-07  7.67748e-07
      881.000  5.25087e-07  6.63676e-08  5.39555e-07  5.39555e-07
      884.000  3.25151e-07  6.71765e-08  3.76625e-07  3.76625e-07
      887.000  2.86285e-07  6.53480e-08  3.12057e-07  3.12057e-07
      890.000  3.53088e-07  6.58169e-08  3.57005e-07  3.57005e-07
      893.000  3.50811e-07  6.45076e-08  3.44024e-07  3.44024e-07
      896.000  3.45983e-07  6.43159e-08  3.40338e-07  3.40338e-07
      899.000  3.86605e-07  6.34043e-08  4.01537e-07  4.01537e-07
      902.000  4.75896e-07  1.21701e-07  4.65362e-07  4.65362e-07
      905.000  5.60401e-07  1.25403e-07  5.64855e-07  5.64855e-07
      908.000  6.28479e-07  1.22477e-07  6.28948e-07  6.28948e-07
      912.000  5.88254e-07  1.22764e-07  6.34103e-07  6.34103e-07
      915.000  6.44683e-07  1.22427e-07  6.48731e-07  6.48731e-07
      918.000  7.84430e-07  1.21435e-07  7.27490e-07  7.27492e-07
      921.000  9.51060e-07  1.18657e-07  9.11445e-07  9.11624e-07
      924.000  1.28496e-06  1.16208e-07  1.44172e-06  1.44831e-06
      927.000  1.87148e-06  1.18036e-07  2.09986e-06  2.13544e-06
      930.000  3.96822e-06  1.18391e-07  3.71265e-06  3.89379e-06
      933.000  5.05938e-06  1.18076e-07  5.12080e-06  5.42355e-06
